# Effect of series 120 fF capacitance embedded in 10 Ohm microstrip
0.001	-1.44457e-09	-96.4322	1.94359
5	-0.0246222	-22.4773	0.00040092
10	-0.097665	-16.5294	0.000231777
15	-0.21676	-13.1262	0.000201158
20	-0.378235	-10.7882	0.000209827
25	-0.577471	-9.04832	0.000237006
30	-0.809296	-7.69541	0.000275259
35	-1.06836	-6.61424	0.000321097
40	-1.34943	-5.73397	0.000372587
45	-1.64765	-5.00744	0.000428539
50	-1.95863	-4.40138	0.000488161
55	-2.27856	-3.89137	0.000550901
60	-2.60419	-3.45895	0.000616366
65	-2.93283	-3.08986	0.000684265
70	-3.26225	-2.77291	0.000754384
75	-3.59069	-2.49921	0.000826564
80	-3.91676	-2.26163	0.000900691
85	-4.23936	-2.05438	0.000976681
90	-4.55768	-1.87275	0.00105448
95	-4.87111	-1.71288	0.00113404
100	-5.17921	-1.57158	0.00121536
105	-5.48169	-1.44619	0.00129842
110	-5.77836	-1.3345	0.00138322
115	-6.06912	-1.23467	0.00146978
120	-6.35395	-1.14512	0.00155813
125	-6.63287	-1.06455	0.00164827
130	-6.90594	-0.991822	0.00174025
135	-7.17327	-0.925988	0.0018341
140	-7.43496	-0.866226	0.00192986
145	-7.69115	-0.811833	0.00202756
150	-7.94199	-0.762199	0.00212724
155	-8.18764	-0.716799	0.00222895
160	-8.42825	-0.675176	0.00233274
165	-8.66398	-0.636931	0.00243864
170	-8.895	-0.601717	0.0025467
175	-9.12147	-0.569226	0.00265697
180	-9.34354	-0.539192	0.00276949
185	-9.56137	-0.511376	0.00288431
190	-9.77511	-0.48557	0.00300148
195	-9.98492	-0.461587	0.00312103
200	-10.1909	-0.439262	0.00324303
205	-10.3933	-0.418449	0.00336751
210	-10.5921	-0.399015	0.00349452
215	-10.7875	-0.380842	0.00362411
220	-10.9797	-0.363827	0.00375632
225	-11.1687	-0.347873	0.00389121
230	-11.3547	-0.332894	0.0040288
235	-11.5378	-0.318815	0.00416917
240	-11.7181	-0.305564	0.00431234
245	-11.8957	-0.29308	0.00445837
250	-12.0706	-0.281304	0.00460731
255	-12.2431	-0.270184	0.0047592
260	-12.4132	-0.259672	0.00491409
265	-12.5809	-0.249727	0.00507203
270	-12.7464	-0.240307	0.00523308
275	-12.9098	-0.231377	0.00539728
280	-13.0711	-0.222903	0.00556468
285	-13.2304	-0.214855	0.00573533
290	-13.3878	-0.207205	0.00590929
295	-13.5433	-0.199928	0.00608662
300	-13.6971	-0.192999	0.00626736
305	-13.8492	-0.186397	0.00645158
310	-13.9997	-0.180101	0.00663934
315	-14.1486	-0.174094	0.00683068
320	-14.296	-0.168356	0.00702568
325	-14.4419	-0.162874	0.0072244
330	-14.5865	-0.157631	0.0074269
335	-14.7298	-0.152614	0.00763325
340	-14.8718	-0.14781	0.00784351
345	-15.0126	-0.143208	0.00805777
350	-15.1523	-0.138795	0.00827609
355	-15.2908	-0.134562	0.00849854
360	-15.4283	-0.130499	0.00872521
365	-15.5648	-0.126597	0.00895619
370	-15.7004	-0.122847	0.00919154
375	-15.8351	-0.119242	0.00943136
380	-15.9689	-0.115774	0.00967575
385	-16.102	-0.112436	0.00992479
390	-16.2343	-0.109222	0.0101786
395	-16.3659	-0.106126	0.0104372
400	-16.4969	-0.103142	0.0107009
405	-16.6273	-0.100264	0.0109695
410	-16.7571	-0.097487	0.0112434
415	-16.8865	-0.0948071	0.0115226
420	-17.0154	-0.0922192	0.0118072
425	-17.1438	-0.0897192	0.0120974
430	-17.2719	-0.0873031	0.0123933
435	-17.3998	-0.084967	0.012695
440	-17.5273	-0.0827075	0.0130027
445	-17.6546	-0.0805211	0.0133166
450	-17.7818	-0.0784046	0.0136368
455	-17.9089	-0.0763551	0.0139635
460	-18.0359	-0.0743697	0.0142968
465	-18.1629	-0.0724456	0.0146371
470	-18.29	-0.0705804	0.0149843
475	-18.4171	-0.0687715	0.0153389
480	-18.5445	-0.0670166	0.015701
485	-18.672	-0.0653137	0.0160707
490	-18.7998	-0.0636606	0.0164485
495	-18.928	-0.0620552	0.0168345
500	-19.0566	-0.0604959	0.017229
505	-19.1856	-0.0589807	0.0176323
510	-19.3152	-0.057508	0.0180448
515	-19.4454	-0.0560761	0.0184667
520	-19.5763	-0.0546836	0.0188984
525	-19.708	-0.0533289	0.0193403
530	-19.8406	-0.0520107	0.0197927
535	-19.9741	-0.0507277	0.0202562
540	-20.1086	-0.0494786	0.0207311
545	-20.2443	-0.0482622	0.021218
550	-20.3812	-0.0470774	0.0217173
555	-20.5195	-0.045923	0.0222297
560	-20.6592	-0.044798	0.0227558
565	-20.8006	-0.0437015	0.0232962
570	-20.9438	-0.0426325	0.0238516
575	-21.0888	-0.0415901	0.0244229
580	-21.2359	-0.0405735	0.0250108
585	-21.3853	-0.0395818	0.0256164
590	-21.5372	-0.0386142	0.0262406
595	-21.6917	-0.0376701	0.0268846
600	-21.8491	-0.0367488	0.0275497
605	-22.0097	-0.0358495	0.0282373
610	-22.1738	-0.0349716	0.028949
615	-22.3418	-0.0341146	0.0296866
620	-22.5139	-0.0332779	0.0304521
625	-22.6907	-0.0324608	0.0312479
630	-22.8728	-0.031663	0.0320768
635	-23.0605	-0.0308838	0.0329419
640	-23.2549	-0.0301228	0.0338473
645	-23.4565	-0.0293795	0.0347976
650	-23.6667	-0.0286533	0.0357986
655	-23.8868	-0.0279436	0.0368581
660	-24.1186	-0.0272497	0.0379861
665	-24.3647	-0.0265704	0.0391973
670	-24.6291	-0.0259037	0.0405143
675	-24.9192	-0.0252454	0.0419795
680	-25.2552	-0.0245788	0.0437152
685	-25.6537	-0.0291736	0.0658243
690	-26.0038	-0.0359147	0.0956644
695	-26.3411	-0.0431211	0.12739
700	-26.6712	-0.0507563	0.160995
705	-26.9957	-0.058798	0.196472
710	-27.3142	-0.0672295	0.233816
715	-27.6257	-0.0760364	0.273025
720	-27.9287	-0.0852056	0.314094
725	-28.2208	-0.0947244	0.357016
730	-28.4997	-0.10458	0.401784
735	-28.7625	-0.11476	0.448385
740	-29.006	-0.125251	0.496806
745	-29.227	-0.136039	0.547029
750	-29.4225	-0.147112	0.599032
755	-29.5895	-0.158453	0.652791
760	-29.7253	-0.170049	0.708276
765	-29.8282	-0.181885	0.765457
770	-29.8968	-0.193944	0.824298
775	-29.9308	-0.206212	0.884759
780	-29.9306	-0.218671	0.946799
785	-29.8976	-0.231306	1.01037
790	-29.8338	-0.2441	1.07543
795	-29.7419	-0.257036	1.14192
800	-29.6249	-0.270098	1.20979
805	-29.4861	-0.28327	1.27899
810	-29.3288	-0.296534	1.34946
815	-29.1563	-0.309875	1.42114
820	-28.9717	-0.323276	1.49397
825	-28.7778	-0.336723	1.56789
830	-28.5771	-0.350199	1.64283
835	-28.3719	-0.36369	1.71874
840	-28.164	-0.377183	1.79556
845	-27.9552	-0.390662	1.87322
850	-27.7467	-0.404115	1.95166
855	-27.5398	-0.41753	2.03083
860	-27.3353	-0.430893	2.11065
865	-27.1339	-0.444195	2.19109
870	-26.9363	-0.457425	2.27207
875	-26.7428	-0.470572	2.35355
880	-26.5538	-0.483628	2.43547
885	-26.3695	-0.496584	2.51779
890	-26.1901	-0.509431	2.60044
895	-26.0157	-0.522164	2.6834
900	-25.8463	-0.534775	2.7666
905	-25.6819	-0.547259	2.85001
910	-25.5226	-0.55961	2.9336
915	-25.3681	-0.571825	3.01731
920	-25.2186	-0.583898	3.10112
925	-25.0738	-0.595826	3.185
930	-24.9336	-0.607607	3.26891
935	-24.798	-0.619237	3.35282
940	-24.6669	-0.630716	3.43671
945	-24.54	-0.642041	3.52056
950	-24.4172	-0.653212	3.60433
955	-24.2985	-0.664227	3.68802
960	-24.1837	-0.675087	3.7716
965	-24.0727	-0.685791	3.85506
970	-23.9653	-0.69634	3.93838
975	-23.8614	-0.706733	4.02155
980	-23.7609	-0.716973	4.10455
985	-23.6637	-0.727059	4.18737
990	-23.5697	-0.736994	4.27002
995	-23.4787	-0.746778	4.35247
1000	-23.3906	-0.756414	4.43473
1005	-23.3054	-0.765902	4.51678
1010	-23.2229	-0.775245	4.59862
1015	-23.143	-0.784445	4.68025
1020	-23.0657	-0.793504	4.76167
1025	-22.9908	-0.802423	4.84287
1030	-22.9182	-0.811206	4.92386
1035	-22.8479	-0.819854	5.00462
1040	-22.7798	-0.82837	5.08517
1045	-22.7139	-0.836756	5.16551
1050	-22.6499	-0.845014	5.24562
1055	-22.588	-0.853147	5.32553
1060	-22.5279	-0.861157	5.40522
1065	-22.4697	-0.869047	5.4847
1070	-22.4132	-0.876819	5.56398
1075	-22.3585	-0.884475	5.64305
1080	-22.3053	-0.892018	5.72193
1085	-22.2538	-0.89945	5.80061
1090	-22.2039	-0.906773	5.87909
1095	-22.1554	-0.91399	5.95739
1100	-22.1084	-0.921103	6.03551
1105	-22.0628	-0.928114	6.11344
1110	-22.0185	-0.935026	6.1912
1115	-21.9755	-0.941841	6.26879
1120	-21.9338	-0.94856	6.34622
1125	-21.8934	-0.955186	6.42348
1130	-21.8541	-0.961721	6.50059
1135	-21.816	-0.968167	6.57755
1140	-21.779	-0.974526	6.65436
1145	-21.7431	-0.9808	6.73103
1150	-21.7082	-0.986992	6.80757
1155	-21.6744	-0.993102	6.88397
1160	-21.6415	-0.999132	6.96025
1165	-21.6096	-1.00509	7.0364
1170	-21.5787	-1.01096	7.11244
1175	-21.5487	-1.01677	7.18837
1180	-21.5196	-1.0225	7.26419
1185	-21.4913	-1.02816	7.33991
1190	-21.4638	-1.03375	7.41554
1195	-21.4372	-1.03927	7.49107
1200	-21.4114	-1.04473	7.56651
1205	-21.3864	-1.05012	7.64188
1210	-21.3621	-1.05546	7.71716
1215	-21.3385	-1.06072	7.79237
1220	-21.3157	-1.06593	7.86752
1225	-21.2935	-1.07108	7.9426
1230	-21.2721	-1.07618	8.01762
1235	-21.2513	-1.08121	8.09258
1240	-21.2311	-1.0862	8.1675
1245	-21.2116	-1.09113	8.24236
1250	-21.1927	-1.096	8.31719
1255	-21.1744	-1.10083	8.39198
1260	-21.1567	-1.1056	8.46674
1265	-21.1396	-1.11033	8.54146
1270	-21.123	-1.11501	8.61616
1275	-21.107	-1.11964	8.69084
1280	-21.0916	-1.12423	8.7655
1285	-21.0766	-1.12877	8.84015
1290	-21.0622	-1.13327	8.91479
1295	-21.0483	-1.13773	8.98942
1300	-21.0349	-1.14214	9.06405
1305	-21.022	-1.14652	9.13868
1310	-21.0095	-1.15085	9.21332
1315	-20.9975	-1.15515	9.28796
1320	-20.986	-1.15941	9.36262
1325	-20.9749	-1.16363	9.43729
1330	-20.9643	-1.16781	9.51199
1335	-20.9541	-1.17196	9.5867
1340	-20.9443	-1.17608	9.66144
1345	-20.9349	-1.18016	9.73621
1350	-20.9259	-1.1842	9.811
1355	-20.9174	-1.18822	9.88584
1360	-20.9092	-1.1922	9.96071
1365	-20.9015	-1.19615	10.0356
1370	-20.8941	-1.20008	10.1106
1375	-20.8871	-1.20397	10.1856
1380	-20.8804	-1.20783	10.2606
1385	-20.8741	-1.21166	10.3357
1390	-20.8682	-1.21547	10.4109
1395	-20.8626	-1.21925	10.4861
1400	-20.8574	-1.223	10.5614
1405	-20.8525	-1.22673	10.6367
1410	-20.848	-1.23043	10.7121
1415	-20.8437	-1.2341	10.7876
1420	-20.8399	-1.23775	10.8631
1425	-20.8363	-1.24138	10.9387
1430	-20.833	-1.24498	11.0144
1435	-20.8301	-1.24856	11.0902
1440	-20.8275	-1.25212	11.166
1445	-20.8251	-1.25565	11.242
1450	-20.8231	-1.25916	11.318
1455	-20.8214	-1.26266	11.3941
1460	-20.82	-1.26613	11.4702
1465	-20.8188	-1.26958	11.5465
1470	-20.818	-1.27301	11.6229
1475	-20.8174	-1.27642	11.6993
1480	-20.8171	-1.27981	11.7759
1485	-20.8171	-1.28318	11.8525
1490	-20.8174	-1.28653	11.9292
1495	-20.8179	-1.28987	12.0061
1500	-20.8187	-1.29319	12.083
1505	-20.8198	-1.29649	12.1601
1510	-20.8211	-1.29977	12.2372
1515	-20.8227	-1.30304	12.3145
1520	-20.8246	-1.30629	12.3918
1525	-20.8267	-1.30952	12.4693
1530	-20.829	-1.31274	12.5469
1535	-20.8317	-1.31594	12.6246
1540	-20.8345	-1.31912	12.7024
1545	-20.8376	-1.32229	12.7803
1550	-20.841	-1.32545	12.8583
1555	-20.8446	-1.32859	12.9365
1560	-20.8484	-1.33172	13.0148
1565	-20.8525	-1.33483	13.0931
1570	-20.8568	-1.33793	13.1716
1575	-20.8614	-1.34101	13.2503
1580	-20.8661	-1.34408	13.329
1585	-20.8712	-1.34714	13.4079
1590	-20.8764	-1.35018	13.4869
1595	-20.8819	-1.35322	13.566
1600	-20.8876	-1.35623	13.6453
1605	-20.8935	-1.35924	13.7247
1610	-20.8997	-1.36224	13.8042
1615	-20.9061	-1.36522	13.8838
1620	-20.9127	-1.36819	13.9636
1625	-20.9195	-1.37115	14.0435
1630	-20.9265	-1.37409	14.1235
1635	-20.9338	-1.37703	14.2036
1640	-20.9413	-1.37995	14.2839
1645	-20.949	-1.38287	14.3644
1650	-20.9569	-1.38577	14.4449
1655	-20.965	-1.38866	14.5256
1660	-20.9734	-1.39154	14.6064
1665	-20.9819	-1.39441	14.6874
1670	-20.9907	-1.39727	14.7685
1675	-20.9997	-1.40012	14.8497
1680	-21.0089	-1.40296	14.9311
1685	-21.0183	-1.40579	15.0126
1690	-21.0279	-1.40861	15.0942
1695	-21.0378	-1.41141	15.176
1700	-21.0478	-1.41421	15.2579
1705	-21.058	-1.417	15.34
1710	-21.0685	-1.41979	15.4221
1715	-21.0792	-1.42256	15.5045
1720	-21.09	-1.42532	15.5869
1725	-21.1011	-1.42807	15.6696
1730	-21.1124	-1.43082	15.7523
1735	-21.1239	-1.43355	15.8352
1740	-21.1356	-1.43628	15.9182
1745	-21.1475	-1.43899	16.0014
1750	-21.1596	-1.4417	16.0847
1755	-21.1719	-1.4444	16.1682
1760	-21.1844	-1.44709	16.2518
1765	-21.1971	-1.44978	16.3355
1770	-21.21	-1.45245	16.4194
1775	-21.2231	-1.45512	16.5034
1780	-21.2364	-1.45778	16.5875
1785	-21.25	-1.46043	16.6718
1790	-21.2637	-1.46307	16.7563
1795	-21.2776	-1.4657	16.8408
1800	-21.2918	-1.46833	16.9256
1805	-21.3061	-1.47095	17.0104
1810	-21.3207	-1.47356	17.0954
1815	-21.3354	-1.47616	17.1806
1820	-21.3504	-1.47876	17.2658
1825	-21.3655	-1.48134	17.3513
1830	-21.3809	-1.48392	17.4368
1835	-21.3964	-1.4865	17.5225
1840	-21.4122	-1.48906	17.6084
1845	-21.4282	-1.49162	17.6943
1850	-21.4443	-1.49417	17.7805
1855	-21.4607	-1.49671	17.8667
1860	-21.4773	-1.49925	17.9531
1865	-21.4941	-1.50177	18.0397
1870	-21.5111	-1.50429	18.1263
1875	-21.5283	-1.50681	18.2132
1880	-21.5457	-1.50931	18.3001
1885	-21.5633	-1.51181	18.3872
1890	-21.5811	-1.51431	18.4744
1895	-21.5991	-1.51679	18.5618
1900	-21.6173	-1.51927	18.6493
1905	-21.6358	-1.52174	18.7369
1910	-21.6544	-1.52421	18.8247
1915	-21.6733	-1.52667	18.9126
1920	-21.6923	-1.52912	19.0007
1925	-21.7116	-1.53156	19.0889
1930	-21.7311	-1.534	19.1772
1935	-21.7507	-1.53643	19.2657
1940	-21.7706	-1.53886	19.3542
1945	-21.7908	-1.54127	19.443
1950	-21.8111	-1.54369	19.5318
1955	-21.8316	-1.54609	19.6208
1960	-21.8524	-1.54849	19.7099
1965	-21.8733	-1.55088	19.7992
1970	-21.8945	-1.55326	19.8886
1975	-21.9159	-1.55564	19.9781
1980	-21.9375	-1.55802	20.0678
1985	-21.9593	-1.56038	20.1575
1990	-21.9814	-1.56274	20.2475
1995	-22.0036	-1.56509	20.3375
2000	-22.0261	-1.56744	20.4277
