# Effect of series 100 fF capacitance embedded in 20 Ohm microstrip
0.001	-3.19469e-09	-91.9952	0.691184
5	-0.0680463	-18.0839	0.000150117
10	-0.265995	-12.2615	0.000105701
15	-0.577044	-9.0512	0.000116181
20	-0.978089	-6.95408	0.000144974
25	-1.44451	-5.48309	0.000183843
30	-1.95376	-4.40969	0.000229545
35	-2.48724	-3.60539	0.000280388
40	-3.03069	-2.99034	0.000335345
45	-3.57384	-2.51196	0.000393726
50	-4.10959	-2.13427	0.000455045
55	-4.63334	-1.83205	0.000518944
60	-5.14223	-1.58723	0.000585158
65	-5.63467	-1.38669	0.000653488
70	-6.10996	-1.22072	0.000723784
75	-6.56793	-1.08204	0.000795934
80	-7.00884	-0.965171	0.000869861
85	-7.43315	-0.865876	0.000945507
90	-7.84149	-0.780889	0.00102284
95	-8.23455	-0.707651	0.00110183
100	-8.61308	-0.644135	0.00118248
105	-8.9778	-0.588729	0.0012648
110	-9.32945	-0.540133	0.00134878
115	-9.66873	-0.497293	0.00143446
120	-9.99631	-0.45935	0.00152187
125	-10.3128	-0.425596	0.00161102
130	-10.6189	-0.395445	0.00170195
135	-10.9151	-0.368408	0.00179471
140	-11.2019	-0.344076	0.00188933
145	-11.4799	-0.322105	0.00198585
150	-11.7494	-0.302201	0.00208433
155	-12.011	-0.284116	0.00218479
160	-12.265	-0.267637	0.00228729
165	-12.5119	-0.252581	0.00239187
170	-12.7519	-0.238791	0.00249859
175	-12.9854	-0.226129	0.00260748
180	-13.2128	-0.214477	0.00271859
185	-13.4342	-0.203731	0.00283198
190	-13.6501	-0.193799	0.00294769
195	-13.8605	-0.184603	0.00306576
200	-14.0659	-0.176072	0.00318625
205	-14.2663	-0.168143	0.00330919
210	-14.4621	-0.160761	0.00343465
215	-14.6534	-0.153878	0.00356266
220	-14.8404	-0.14745	0.00369327
225	-15.0233	-0.141437	0.00382654
230	-15.2022	-0.135805	0.0039625
235	-15.3774	-0.130522	0.00410121
240	-15.5489	-0.12556	0.00424271
245	-15.717	-0.120893	0.00438705
250	-15.8817	-0.116499	0.00453429
255	-16.0432	-0.112357	0.00468446
260	-16.2016	-0.108448	0.00483762
265	-16.3571	-0.104754	0.00499382
270	-16.5097	-0.10126	0.00515311
275	-16.6596	-0.0979524	0.00531554
280	-16.8068	-0.0948171	0.00548117
285	-16.9515	-0.0918428	0.00565004
290	-17.0938	-0.0890184	0.00582221
295	-17.2337	-0.0863339	0.00599774
300	-17.3713	-0.0837802	0.00617669
305	-17.5068	-0.0813489	0.0063591
310	-17.6402	-0.079032	0.00654505
315	-17.7716	-0.0768224	0.00673459
320	-17.9011	-0.0747136	0.00692778
325	-18.0287	-0.0726993	0.00712469
330	-18.1545	-0.0707738	0.00732538
335	-18.2786	-0.068932	0.00752993
340	-18.4011	-0.0671688	0.0077384
345	-18.5219	-0.0654799	0.00795087
350	-18.6413	-0.0638608	0.0081674
355	-18.7592	-0.0623078	0.00838809
360	-18.8758	-0.060817	0.008613
365	-18.991	-0.0593852	0.00884222
370	-19.105	-0.0580092	0.00907584
375	-19.2177	-0.0566858	0.00931395
380	-19.3293	-0.0554124	0.00955663
385	-19.4398	-0.0541864	0.00980399
390	-19.5493	-0.0530052	0.0100561
395	-19.6578	-0.0518666	0.0103131
400	-19.7654	-0.0507684	0.0105751
405	-19.872	-0.0497087	0.0108422
410	-19.9779	-0.0486854	0.0111145
415	-20.083	-0.0476968	0.0113922
420	-20.1875	-0.0467413	0.0116753
425	-20.2912	-0.0458172	0.011964
430	-20.3944	-0.0449231	0.0122584
435	-20.497	-0.0440574	0.0125588
440	-20.5991	-0.043219	0.0128651
445	-20.7008	-0.0424065	0.0131777
450	-20.802	-0.0416187	0.0134966
455	-20.903	-0.0408546	0.0138221
460	-21.0037	-0.040113	0.0141543
465	-21.1042	-0.0393929	0.0144933
470	-21.2045	-0.0386934	0.0148396
475	-21.3048	-0.0380136	0.0151931
480	-21.405	-0.0373526	0.0155542
485	-21.5052	-0.0367096	0.0159231
490	-21.6055	-0.0360839	0.0163
495	-21.706	-0.0354747	0.0166852
500	-21.8067	-0.0348812	0.017079
505	-21.9077	-0.0343029	0.0174817
510	-22.0091	-0.0337391	0.0178936
515	-22.111	-0.0331892	0.0183151
520	-22.2134	-0.0326527	0.0187464
525	-22.3164	-0.0321289	0.019188
530	-22.4201	-0.0316175	0.0196402
535	-22.5246	-0.0311178	0.0201036
540	-22.63	-0.0306295	0.0205785
545	-22.7365	-0.0301521	0.0210655
550	-22.844	-0.0296852	0.021565
555	-22.9528	-0.0292283	0.0220777
560	-23.063	-0.0287812	0.0226042
565	-23.1746	-0.0283434	0.0231452
570	-23.2879	-0.0279147	0.0237013
575	-23.4031	-0.0274946	0.0242733
580	-23.5202	-0.0270829	0.0248622
585	-23.6395	-0.0266794	0.0254689
590	-23.7612	-0.0262836	0.0260943
595	-23.8856	-0.0258955	0.0267398
600	-24.0128	-0.0255148	0.0274064
605	-24.1432	-0.0251412	0.0280958
610	-24.2771	-0.0247747	0.0288094
615	-24.4148	-0.0244149	0.0295491
620	-24.5569	-0.0240617	0.0303169
625	-24.7037	-0.023715	0.0311152
630	-24.8558	-0.0233748	0.0319468
635	-25.014	-0.0230408	0.032815
640	-25.1789	-0.022713	0.0337235
645	-25.3516	-0.0223913	0.0346773
650	-25.5333	-0.0220757	0.0356821
655	-25.7256	-0.0217661	0.0367456
660	-25.9306	-0.0214624	0.037878
665	-26.1513	-0.0211644	0.0390939
670	-26.3924	-0.0208715	0.040416
675	-26.6625	-0.0205822	0.0418867
680	-26.986	-0.0202886	0.0436282
685	-27.381	-0.0252646	0.0657357
690	-27.7124	-0.0323404	0.095581
695	-28.024	-0.0398578	0.127324
700	-28.3223	-0.0477853	0.160957
705	-28.6088	-0.0561036	0.196477
710	-28.8831	-0.0647976	0.23388
715	-29.1436	-0.0738545	0.273162
720	-29.3882	-0.0832621	0.314323
725	-29.6145	-0.093009	0.357355
730	-29.8198	-0.103083	0.402252
735	-30.0013	-0.113474	0.449004
740	-30.1563	-0.124167	0.497597
745	-30.2823	-0.135151	0.548015
750	-30.3773	-0.146413	0.600238
755	-30.4398	-0.157939	0.654242
760	-30.4693	-0.169715	0.709999
765	-30.4657	-0.181727	0.767479
770	-30.4299	-0.193959	0.826648
775	-30.3634	-0.206396	0.887466
780	-30.2685	-0.219024	0.949894
785	-30.1477	-0.231826	1.01389
790	-30.0041	-0.244786	1.0794
795	-29.8408	-0.257888	1.14637
800	-29.6609	-0.271117	1.21476
805	-29.4673	-0.284455	1.28452
810	-29.2631	-0.297888	1.35557
815	-29.0506	-0.311399	1.42788
820	-28.8324	-0.324973	1.50137
825	-28.6104	-0.338594	1.57598
830	-28.3863	-0.352248	1.65166
835	-28.1616	-0.365921	1.72835
840	-27.9377	-0.379598	1.80597
845	-27.7155	-0.393265	1.88448
850	-27.4959	-0.40691	1.96381
855	-27.2796	-0.420521	2.04391
860	-27.0671	-0.434086	2.1247
865	-26.8587	-0.447593	2.20614
870	-26.6549	-0.461033	2.28817
875	-26.4558	-0.474395	2.37073
880	-26.2616	-0.487671	2.45378
885	-26.0724	-0.500851	2.53725
890	-25.8882	-0.513929	2.62111
895	-25.7091	-0.526896	2.7053
900	-25.5349	-0.539747	2.78978
905	-25.3657	-0.552476	2.87451
910	-25.2014	-0.565078	2.95945
915	-25.0418	-0.577547	3.04455
920	-24.887	-0.58988	3.1298
925	-24.7367	-0.602073	3.21514
930	-24.5908	-0.614124	3.30055
935	-24.4493	-0.62603	3.38601
940	-24.312	-0.637788	3.47148
945	-24.1788	-0.649398	3.55694
950	-24.0495	-0.660857	3.64237
955	-23.9241	-0.672166	3.72775
960	-23.8023	-0.683324	3.81305
965	-23.6842	-0.69433	3.89827
970	-23.5695	-0.705185	3.98338
975	-23.4581	-0.71589	4.06838
980	-23.35	-0.726444	4.15324
985	-23.245	-0.736849	4.23797
990	-23.1429	-0.747107	4.32255
995	-23.0438	-0.757217	4.40697
1000	-22.9475	-0.767183	4.49122
1005	-22.8539	-0.777005	4.57531
1010	-22.7629	-0.786685	4.65922
1015	-22.6744	-0.796225	4.74295
1020	-22.5883	-0.805627	4.82651
1025	-22.5046	-0.814894	4.90987
1030	-22.4231	-0.824026	4.99306
1035	-22.3439	-0.833027	5.07605
1040	-22.2667	-0.841898	5.15887
1045	-22.1916	-0.850643	5.24149
1050	-22.1184	-0.859262	5.32394
1055	-22.0472	-0.867758	5.4062
1060	-21.9777	-0.876135	5.48828
1065	-21.9101	-0.884393	5.57018
1070	-21.8442	-0.892535	5.65191
1075	-21.7799	-0.900564	5.73346
1080	-21.7173	-0.908482	5.81485
1085	-21.6562	-0.916291	5.89607
1090	-21.5966	-0.923993	5.97713
1095	-21.5385	-0.931591	6.05803
1100	-21.4818	-0.939086	6.13878
1105	-21.4265	-0.946482	6.21938
1110	-21.3725	-0.95378	6.29983
1115	-21.3198	-0.960981	6.38014
1120	-21.2684	-0.96809	6.46032
1125	-21.2182	-0.975106	6.54037
1130	-21.1691	-0.982033	6.62029
1135	-21.1212	-0.988872	6.70008
1140	-21.0744	-0.995626	6.77976
1145	-21.0287	-1.0023	6.85933
1150	-20.984	-1.00888	6.93879
1155	-20.9404	-1.01539	7.01815
1160	-20.8978	-1.02182	7.09742
1165	-20.8561	-1.02817	7.17658
1170	-20.8154	-1.03445	7.25567
1175	-20.7755	-1.04065	7.33466
1180	-20.7366	-1.04679	7.41358
1185	-20.6986	-1.05285	7.49243
1190	-20.6614	-1.05885	7.57121
1195	-20.625	-1.06477	7.64993
1200	-20.5894	-1.07064	7.72858
1205	-20.5546	-1.07643	7.80718
1210	-20.5206	-1.08217	7.88573
1215	-20.4873	-1.08785	7.96424
1220	-20.4548	-1.09346	8.04271
1225	-20.423	-1.09902	8.12114
1230	-20.3919	-1.10452	8.19953
1235	-20.3614	-1.10996	8.2779
1240	-20.3316	-1.11535	8.35625
1245	-20.3025	-1.12069	8.43458
1250	-20.274	-1.12597	8.51289
1255	-20.2462	-1.1312	8.5912
1260	-20.2189	-1.13639	8.66949
1265	-20.1923	-1.14152	8.74779
1270	-20.1662	-1.14661	8.82609
1275	-20.1407	-1.15165	8.90439
1280	-20.1158	-1.15664	8.9827
1285	-20.0914	-1.16159	9.06103
1290	-20.0676	-1.1665	9.13937
1295	-20.0443	-1.17136	9.21773
1300	-20.0215	-1.17618	9.29612
1305	-19.9992	-1.18096	9.37454
1310	-19.9775	-1.1857	9.45298
1315	-19.9562	-1.1904	9.53147
1320	-19.9354	-1.19507	9.60999
1325	-19.9151	-1.19969	9.68855
1330	-19.8952	-1.20428	9.76716
1335	-19.8758	-1.20883	9.84582
1340	-19.8569	-1.21335	9.92453
1345	-19.8384	-1.21783	10.0033
1350	-19.8203	-1.22228	10.0821
1355	-19.8026	-1.2267	10.161
1360	-19.7854	-1.23108	10.2399
1365	-19.7686	-1.23543	10.319
1370	-19.7522	-1.23975	10.398
1375	-19.7362	-1.24404	10.4772
1380	-19.7206	-1.2483	10.5564
1385	-19.7054	-1.25253	10.6357
1390	-19.6906	-1.25674	10.7151
1395	-19.6761	-1.26091	10.7946
1400	-19.662	-1.26506	10.8741
1405	-19.6483	-1.26918	10.9538
1410	-19.635	-1.27327	11.0335
1415	-19.622	-1.27734	11.1134
1420	-19.6094	-1.28138	11.1933
1425	-19.5971	-1.28539	11.2733
1430	-19.5852	-1.28939	11.3534
1435	-19.5736	-1.29335	11.4337
1440	-19.5623	-1.2973	11.514
1445	-19.5514	-1.30122	11.5944
1450	-19.5408	-1.30512	11.675
1455	-19.5305	-1.309	11.7556
1460	-19.5205	-1.31285	11.8364
1465	-19.5109	-1.31668	11.9173
1470	-19.5016	-1.32049	11.9982
1475	-19.4926	-1.32428	12.0794
1480	-19.4839	-1.32805	12.1606
1485	-19.4755	-1.33181	12.2419
1490	-19.4674	-1.33554	12.3234
1495	-19.4595	-1.33925	12.405
1500	-19.452	-1.34294	12.4867
1505	-19.4448	-1.34661	12.5686
1510	-19.4379	-1.35027	12.6506
1515	-19.4312	-1.3539	12.7327
1520	-19.4249	-1.35752	12.8149
1525	-19.4188	-1.36112	12.8973
1530	-19.413	-1.36471	12.9798
1535	-19.4074	-1.36827	13.0625
1540	-19.4022	-1.37182	13.1452
1545	-19.3972	-1.37536	13.2282
1550	-19.3925	-1.37888	13.3112
1555	-19.388	-1.38238	13.3944
1560	-19.3838	-1.38586	13.4778
1565	-19.3799	-1.38933	13.5613
1570	-19.3763	-1.39279	13.6449
1575	-19.3729	-1.39623	13.7287
1580	-19.3697	-1.39965	13.8126
1585	-19.3668	-1.40306	13.8966
1590	-19.3642	-1.40646	13.9809
1595	-19.3618	-1.40984	14.0652
1600	-19.3597	-1.41321	14.1497
1605	-19.3578	-1.41656	14.2344
1610	-19.3561	-1.4199	14.3192
1615	-19.3548	-1.42322	14.4042
1620	-19.3536	-1.42654	14.4893
1625	-19.3527	-1.42984	14.5745
1630	-19.352	-1.43312	14.66
1635	-19.3516	-1.43639	14.7455
1640	-19.3514	-1.43965	14.8313
1645	-19.3515	-1.4429	14.9171
1650	-19.3518	-1.44614	15.0032
1655	-19.3523	-1.44936	15.0894
1660	-19.353	-1.45257	15.1757
1665	-19.354	-1.45577	15.2622
1670	-19.3553	-1.45896	15.3489
1675	-19.3567	-1.46213	15.4357
1680	-19.3584	-1.46529	15.5227
1685	-19.3603	-1.46844	15.6098
1690	-19.3625	-1.47158	15.6971
1695	-19.3648	-1.47471	15.7846
1700	-19.3674	-1.47783	15.8722
1705	-19.3703	-1.48094	15.96
1710	-19.3733	-1.48403	16.0479
1715	-19.3766	-1.48711	16.136
1720	-19.3801	-1.49019	16.2243
1725	-19.3838	-1.49325	16.3127
1730	-19.3877	-1.4963	16.4012
1735	-19.3919	-1.49934	16.49
1740	-19.3963	-1.50237	16.5789
1745	-19.4009	-1.50539	16.6679
1750	-19.4057	-1.5084	16.7571
1755	-19.4108	-1.5114	16.8465
1760	-19.416	-1.51439	16.936
1765	-19.4215	-1.51737	17.0257
1770	-19.4272	-1.52034	17.1156
1775	-19.4331	-1.5233	17.2056
1780	-19.4393	-1.52625	17.2958
1785	-19.4456	-1.52918	17.3861
1790	-19.4522	-1.53211	17.4766
1795	-19.459	-1.53503	17.5673
1800	-19.466	-1.53794	17.6581
1805	-19.4732	-1.54084	17.7491
1810	-19.4806	-1.54373	17.8402
1815	-19.4883	-1.54662	17.9315
1820	-19.4961	-1.54949	18.0229
1825	-19.5042	-1.55235	18.1145
1830	-19.5125	-1.5552	18.2063
1835	-19.521	-1.55805	18.2982
1840	-19.5297	-1.56088	18.3903
1845	-19.5387	-1.56371	18.4826
1850	-19.5478	-1.56652	18.575
1855	-19.5572	-1.56933	18.6675
1860	-19.5667	-1.57213	18.7602
1865	-19.5765	-1.57492	18.8531
1870	-19.5865	-1.5777	18.9461
1875	-19.5968	-1.58047	19.0393
1880	-19.6072	-1.58323	19.1326
1885	-19.6178	-1.58599	19.2261
1890	-19.6287	-1.58873	19.3198
1895	-19.6398	-1.59147	19.4136
1900	-19.6511	-1.5942	19.5075
1905	-19.6626	-1.59691	19.6016
1910	-19.6743	-1.59962	19.6959
1915	-19.6862	-1.60233	19.7903
1920	-19.6984	-1.60502	19.8848
1925	-19.7107	-1.6077	19.9795
1930	-19.7233	-1.61038	20.0744
1935	-19.7361	-1.61305	20.1694
1940	-19.7491	-1.61571	20.2646
1945	-19.7623	-1.61836	20.3599
1950	-19.7758	-1.621	20.4553
1955	-19.7894	-1.62363	20.5509
1960	-19.8033	-1.62626	20.6467
1965	-19.8174	-1.62888	20.7426
1970	-19.8317	-1.63148	20.8386
1975	-19.8462	-1.63409	20.9348
1980	-19.8609	-1.63668	21.0312
1985	-19.8759	-1.63926	21.1276
1990	-19.8911	-1.64184	21.2243
1995	-19.9065	-1.64441	21.321
2000	-19.9221	-1.64697	21.4179
