# Output from "simple" SuperMix based program
# Scanning LO_POWER from 5.000000 to 300.000000 nW in steps of 5.000000 nW
#
# FREQUENCY 700.000000 GHz
# BIAS 2.000000 mV
# LO_POWER 180.000000 nW
#
# Data from mixer.conf
#
# TEMP 2.500000 K
# Z0 20.000000 Ohms
# IF_FREQ 5.000000 GHz
# IF_Z0 50.000000 Ohms
# HARMONICS 1
#
# IV_CURVE 31Jul03_unpump.IV
# KK_CURVE 31Jul03_unpump.KK
# RNA 20.000000 Ohm*um^2
# SCAP 65.000000 fF/um^2
# AREA 1.000000 um^2
# VGAP 2.820000 mV
#
# TUNER_TYPE BELITSKY
# BELITSKY_INPUT_STRIP 48.500000 7.000000
# BELITSKY_TUNING_STRIP 14.000000 5.000000
#
# TOP_DEFAULT NB
# TOP_THICKNESS 4000.000000
# GROUND_DEFAULT NB
# GROUND_THICKNESS 4000.000000
# INSUL_DEFAULT SIO
# INSUL_THICKNESS 4250.000000
# COVER_DEFAULT AIR
# COVER_THICKNESS 100000.000000
#
# NB_PROPERTIES 3.050000 9.400000 5.000000
# NBTIN_PROPERTIES 5.000000 15.750000 30.000000
# SIO_PROPERTIES 5.800000 0.000000
# AIR_PROPERTIES 1.000000 0.000000
#
# End of configuration file data
# 
# building the mixer...
# building tuner...
# tuner complete
# building IV curves...
# IV curves complete
# built mixer
# Junction 1 Embedding Impedance : 0.107089+-0.119150i
# Junction 2 Embedding Impedance : 0.053738+-0.219349i
# 
# Results:
#
# LO_POWER (nW)| LSB Gain | USB Gain | IF Output 0K (K)| IF Output 77K (K)| IF Output 297K (K)| DC Current (junc 1) (uA)| DC Current (junc 2) (uA)
5.000000      0.098805      0.098884      2.888866      4.089049      8.370353      4.803910      4.613062
10.000000      0.137918      0.138024      3.246186      5.584585      13.926139      5.574997      5.194979
15.000000      0.166687      0.166811      3.587813      7.003427      19.187636      6.341319      5.773803
20.000000      0.189897      0.190033      3.913814      8.346730      24.159865      7.102903      6.349554
25.000000      0.209428      0.209572      4.224298      9.615791      28.848370      7.859773      6.922251
30.000000      0.226257      0.226407      4.519406      10.812040      33.259175      8.611954      7.491912
35.000000      0.240974      0.241127      4.799319      11.937032      37.398737      9.359470      8.058555
40.000000      0.253971      0.254125      5.064246      12.992430      41.273906      10.102347      8.622200
45.000000      0.265522      0.265677      5.314429      13.979997      44.891876      10.840607      9.182864
50.000000      0.275834      0.275987      5.550135      14.901584      48.260141      11.574277      9.740565
55.000000      0.285064      0.285214      5.771659      15.759118      51.386454      12.303380      10.295321
60.000000      0.293336      0.293483      5.979319      16.554592      54.278778      13.027940      10.847150
65.000000      0.300754      0.300897      6.173452      17.290049      56.945249      13.747981      11.396069
70.000000      0.307402      0.307540      6.354414      17.967577      59.394132      14.463526      11.942096
75.000000      0.313352      0.313484      6.522576      18.589297      61.633783      15.174601      12.485249
80.000000      0.318664      0.318790      6.678325      19.157350      63.672609      15.881227      13.025543
85.000000      0.323394      0.323513      6.822055      19.673890      65.519037      16.583429      13.562997
90.000000      0.327587      0.327698      6.954173      20.141075      67.181473      17.281229      14.097627
95.000000      0.331285      0.331389      7.075090      20.561057      68.668279      17.974652      14.629449
100.000000      0.334526      0.334622      7.185222      20.935974      69.987738      18.663720      15.158481
105.000000      0.337343      0.337431      7.284989      21.267947      71.148032      19.348456      15.684739
110.000000      0.339767      0.339847      7.374812      21.559065      72.157212      20.028882      16.208239
115.000000      0.341825      0.341897      7.455109      21.811388      73.023183      20.705023      16.728997
120.000000      0.343544      0.343607      7.526298      22.026935      73.753681      21.376899      17.247030
125.000000      0.344947      0.345001      7.588794      22.207682      74.356254      22.044535      17.762353
130.000000      0.346055      0.346100      7.643003      22.355558      74.838254      22.707951      18.274982
135.000000      0.346888      0.346924      7.689329      22.472439      75.206819      23.367171      18.784933
140.000000      0.347465      0.347492      7.728167      22.560149      75.468864      24.022216      19.292221
145.000000      0.347804      0.347822      7.759903      22.620453      75.631075      24.673109      19.796862
150.000000      0.347921      0.347930      7.784915      22.655059      75.699899      25.319871      20.298870
155.000000      0.347831      0.347831      7.803572      22.665612      75.681543      25.962524      20.798262
160.000000      0.347548      0.347539      7.816231      22.653698      75.581969      26.601090      21.295052
165.000000      0.347085      0.347067      7.823240      22.620839      75.406892      27.235591      21.789254
170.000000      0.346455      0.346428      7.824934      22.568496      75.161782      27.866047      22.280885
175.000000      0.345670      0.345634      7.821639      22.498065      74.851864      28.492481      22.769958
180.000000      0.344740      0.344695      7.813667      22.410882      74.482120      29.114913      23.256489
185.000000      0.343677      0.343623      7.801319      22.308222      74.057292      29.733364      23.740491
190.000000      0.342489      0.342426      7.784885      22.191295      73.581888      30.347856      24.221979
195.000000      0.341185      0.341115      7.764642      22.061257      73.060183      30.958410      24.700966
200.000000      0.339776      0.339696      7.740856      21.919200      72.496230      31.565046      25.177469
205.000000      0.338267      0.338180      7.713781      21.766163      71.893860      32.167784      25.651499
210.000000      0.336668      0.336572      7.683659      21.603128      71.256693      32.766646      26.123072
215.000000      0.334985      0.334881      7.650722      21.431022      70.588142      33.361652      26.592200
220.000000      0.333225      0.333113      7.615190      21.250722      69.891421      33.952823      27.058898
225.000000      0.331394      0.331275      7.577272      21.063052      69.169554      34.540178      27.523179
230.000000      0.329499      0.329372      7.537167      20.868790      68.425380      35.123737      27.985057
235.000000      0.327545      0.327409      7.495062      20.668664      67.661559      35.703521      28.444545
240.000000      0.325536      0.325394      7.451137      20.463361      66.880585      36.279550      28.901656
245.000000      0.323479      0.323329      7.405560      20.253521      66.084788      36.851844      29.356404
250.000000      0.321378      0.321221      7.358490      20.039747      65.276345      37.420421      29.808801
255.000000      0.319237      0.319072      7.310078      19.822600      64.457285      37.985303      30.258861
260.000000      0.317060      0.316889      7.260465      19.602604      63.629497      38.546508      30.706595
265.000000      0.314851      0.314673      7.209785      19.380249      62.794738      39.104055      31.152018
270.000000      0.312614      0.312429      7.158163      19.155988      61.954638      39.657965      31.595142
275.000000      0.310352      0.310161      7.105718      18.930246      61.110709      40.208256      32.035979
280.000000      0.308068      0.307871      7.052559      18.703414      60.264348      40.754947      32.474542
285.000000      0.305766      0.305562      6.998791      18.475856      59.416848      41.298058      32.910843
290.000000      0.303447      0.303237      6.944510      18.247910      58.569399      41.837607      33.344894
295.000000      0.301116      0.300900      6.889807      18.019885      57.723097      42.373613      33.776709
300.000000      0.298773      0.298551      6.834767      17.792068      56.878951      42.906095      34.206297
