# Output from "simple" SuperMix based program
# Scanning IF_FREQ from 0.100000 to 50.000000 GHz in steps of 0.100000 GHz
#
# FREQUENCY 650.000000 GHz
# BIAS 2.300000 mV
# LO_POWER 50.000000 nW
#
# Data from mixer.conf
#
# TEMP 4.200000 K
# Z0 20.000000 Ohms
# IF_FREQ 1.000000 GHz
# IF_Z0 50.000000 Ohms
# HARMONICS 3
#
# IV_CURVE unpump.IV
# KK_CURVE unpump.KK
# RNA 20.000000 Ohm*um^2
# SCAP 75.000000 fF/um^2
# AREA 0.500000 um^2
# VGAP 2.770000 mV
#
# TUNER_TYPE BEL_WITH_RFCHOKE
# BELITSKY_INPUT_STRIP 65.000000 12.000000 0.475000
# BELITSKY_TUNING_STRIP 25.000000 2.500000 0.475000
# RF_CHOKE_TYPE FILTER
# FILTER_CHOKE_SECTIONS 6
# FILTER_CHOKE_INPUT 9.000000 2.500000
# FILTER_CHOKE_LINE1 42.000000 14.000000
# FILTER_CHOKE_OUTPUT 42.000000 3.000000
#
# TOP_DEFAULT NB
# TOP_THICKNESS 4000.000000
# GROUND_DEFAULT NB
# GROUND_THICKNESS 4000.000000
# INSUL_DEFAULT SIO
# INSUL_THICKNESS 4750.000000
# COVER_DEFAULT AIR
# COVER_THICKNESS 100000.000000
#
# NB_PROPERTIES 3.050000 9.400000 5.000000
# NBTIN_PROPERTIES 5.000000 15.750000 30.000000
# SIO_PROPERTIES 5.800000 0.000000
# AIR_PROPERTIES 1.000000 0.000000
#
# End of configuration file data
# 
# building the mixer...
# building tuner...
# tuner complete
# building IV curves...
# IV curves complete
# built mixer
# Junction 1 LO Embedding Impedance : 0.272761+-0.056893i
# Junction 2 LO Embedding Impedance : 0.804534+1.168748i
# 
# Junction 1 IF Embedding Impedance : 0.084116+0.129357i
# Junction 2 IF Embedding Impedance : 0.008701+0.146863i
# 
# Junction 1 LSB Embedding Impedance : 0.272562+-0.053458i
# Junction 2 LSB Embedding Impedance : 0.674423+1.105820i
# 
# Junction 1 USB Embedding Impedance : 0.272878+-0.060316i
# Junction 2 USB Embedding Impedance : 0.956995+1.220639i
# 
# Results:
#
# IF_FREQ (GHz)| LSB Gain | USB Gain | IF Output 0K (K)| IF Output 77K (K)| IF Output 297K (K)| DC Current (junc 1) (uA)| DC Current (junc 2) (uA)
0.100000      0.065438      0.065656      3.691330      4.227976      6.111721      2.984017      3.061761
0.200000      0.092292      0.092598      3.854656      4.922116      8.669132      3.088103      3.243492
0.300000      0.112726      0.113099      4.016945      5.609396      11.199246      3.191921      3.424856
0.400000      0.129808      0.130235      4.178194      6.289824      13.702108      3.295471      3.605852
0.500000      0.144732      0.145205      4.338398      6.963408      16.177769      3.398756      3.786480
0.600000      0.158108      0.158623      4.497556      7.630159      18.626281      3.501775      3.966741
0.700000      0.170303      0.170854      4.655665      8.290086      21.047701      3.604530      4.146633
0.800000      0.181555      0.182140      4.812723      8.943201      23.442089      3.707022      4.326158
0.900000      0.192030      0.192646      4.968727      9.589516      25.809507      3.809251      4.505315
1.000000      0.201850      0.202493      5.123675      10.229044      28.150023      3.911219      4.684103
1.100000      0.211106      0.211775      5.277565      10.861799      30.463705      4.012927      4.862524
1.200000      0.219870      0.220563      5.430396      11.487797      32.750625      4.114376      5.040577
1.300000      0.228199      0.228913      5.582166      12.107051      35.010860      4.215566      5.218262
1.400000      0.236138      0.236874      5.732874      12.719580      37.244487      4.316499      5.395578
1.500000      0.243727      0.244482      5.882518      13.325399      39.451590      4.417176      5.572527
1.600000      0.250998      0.251771      6.031097      13.924527      41.632251      4.517596      5.749107
1.700000      0.257978      0.258767      6.178611      14.516983      43.786558      4.617763      5.925319
1.800000      0.264689      0.265495      6.325058      15.102785      45.914602      4.717676      6.101163
1.900000      0.271153      0.271973      6.470439      15.681955      48.016475      4.817336      6.276638
2.000000      0.277387      0.278221      6.614752      16.254513      50.092274      4.916744      6.451746
2.100000      0.283406      0.284253      6.757999      16.820480      52.142096      5.015902      6.626485
2.200000      0.289225      0.290083      6.900177      17.379880      54.166043      5.114809      6.800856
2.300000      0.294854      0.295724      7.041288      17.932734      56.164218      5.213468      6.974858
2.400000      0.300306      0.301186      7.181332      18.479068      58.136727      5.311879      7.148492
2.500000      0.305590      0.306480      7.320310      19.018904      60.083679      5.410043      7.321758
2.600000      0.310715      0.311614      7.458221      19.552269      62.005184      5.507961      7.494656
2.700000      0.315689      0.316596      7.595066      20.079187      63.901358      5.605633      7.667185
2.800000      0.320520      0.321434      7.730847      20.599686      65.772314      5.703061      7.839347
2.900000      0.325213      0.326134      7.865564      21.113792      67.618171      5.800246      8.011139
3.000000      0.329776      0.330703      7.999219      21.621533      69.439049      5.897188      8.182564
3.100000      0.334213      0.335147      8.131812      22.122936      71.235070      5.993889      8.353620
3.200000      0.338531      0.339470      8.263345      22.618031      73.006360      6.090349      8.524308
3.300000      0.342733      0.343677      8.393820      23.106846      74.753043      6.186569      8.694628
3.400000      0.346826      0.347774      8.523239      23.589413      76.475250      6.282551      8.864579
3.500000      0.350811      0.351763      8.651602      24.065760      78.173110      6.378294      9.034162
3.600000      0.354695      0.355650      8.778913      24.535918      79.846755      6.473800      9.203377
3.700000      0.358480      0.359438      8.905173      24.999920      81.496320      6.569070      9.372224
3.800000      0.362169      0.363130      9.030385      25.457797      83.121941      6.664105      9.540703
3.900000      0.365766      0.366729      9.154550      25.909582      84.723756      6.758905      9.708814
4.000000      0.369274      0.370239      9.277672      26.355306      86.301903      6.853471      9.876556
4.100000      0.372696      0.373662      9.399752      26.795004      87.856524      6.947805      10.043930
4.200000      0.376035      0.377001      9.520794      27.228709      89.387762      7.041907      10.210937
4.300000      0.379292      0.380258      9.640801      27.656456      90.895761      7.135778      10.377575
4.400000      0.382471      0.383437      9.759775      28.078279      92.380666      7.229418      10.543846
4.500000      0.385573      0.386539      9.877719      28.494213      93.842625      7.322830      10.709748
4.600000      0.388601      0.389566      9.994637      28.904293      95.281786      7.416013      10.875283
4.700000      0.391557      0.392521      10.110532      29.308555      96.698298      7.508969      11.040450
4.800000      0.394443      0.395405      10.225408      29.707036      98.092314      7.601697      11.205249
4.900000      0.397260      0.398221      10.339267      30.099772      99.463984      7.694200      11.369681
5.000000      0.400011      0.400970      10.452113      30.486799      100.813464      7.786478      11.533744
5.100000      0.402697      0.403653      10.563951      30.868155      102.140907      7.878532      11.697440
5.200000      0.405319      0.406273      10.674783      31.243878      103.446469      7.970362      11.860769
5.300000      0.407880      0.408831      10.784614      31.614004      104.730307      8.061970      12.023730
5.400000      0.410381      0.411328      10.893449      31.978573      105.992579      8.153356      12.186324
5.500000      0.412823      0.413767      11.001290      32.337623      107.233443      8.244521      12.348551
5.600000      0.415207      0.416147      11.108142      32.691192      108.453059      8.335466      12.510410
5.700000      0.417536      0.418471      11.214009      33.039318      109.651588      8.426192      12.671902
5.800000      0.419809      0.420740      11.318896      33.382043      110.829190      8.516700      12.833026
5.900000      0.422029      0.422956      11.422808      33.719404      111.986029      8.606990      12.993784
6.000000      0.424196      0.425118      11.525748      34.051441      113.122266      8.697063      13.154175
6.100000      0.426312      0.427229      11.627721      34.378195      114.238065      8.786920      13.314199
6.200000      0.428378      0.429289      11.728733      34.699704      115.333590      8.876562      13.473856
6.300000      0.430395      0.431300      11.828787      35.016010      116.409006      8.965990      13.633147
6.400000      0.432363      0.433262      11.927888      35.327153      117.464477      9.055204      13.792070
6.500000      0.434284      0.435177      12.026043      35.633173      118.500170      9.144205      13.950628
6.600000      0.436159      0.437046      12.123254      35.934111      119.516251      9.232995      14.108819
6.700000      0.437989      0.438869      12.219528      36.230008      120.512886      9.321573      14.266643
6.800000      0.439774      0.440647      12.314870      36.520905      121.490242      9.409941      14.424101
6.900000      0.441515      0.442381      12.409285      36.806843      122.448487      9.498099      14.581194
7.000000      0.443214      0.444073      12.502777      37.087863      123.387787      9.586048      14.737920
7.100000      0.444871      0.445722      12.595353      37.364007      124.308312      9.673790      14.894280
7.200000      0.446486      0.447330      12.687017      37.635315      125.210228      9.761324      15.050274
7.300000      0.448062      0.448897      12.777776      37.901830      126.093704      9.848652      15.205903
7.400000      0.449597      0.450425      12.867634      38.163593      126.958908      9.935773      15.361166
7.500000      0.451094      0.451913      12.956597      38.420646      127.806009      10.022690      15.516064
7.600000      0.452553      0.453363      13.044671      38.673030      128.635176      10.109403      15.670596
7.700000      0.453974      0.454775      13.131861      38.920787      129.446577      10.195912      15.824763
7.800000      0.455358      0.456150      13.218173      39.163959      130.240380      10.282219      15.978565
7.900000      0.456706      0.457489      13.303613      39.402588      131.016754      10.368324      16.132002
8.000000      0.458018      0.458792      13.388186      39.636716      131.775867      10.454227      16.285074
8.100000      0.459295      0.460060      13.471898      39.866384      132.517888      10.539930      16.437782
8.200000      0.460538      0.461293      13.554756      40.091634      133.242986      10.625434      16.590125
8.300000      0.461747      0.462493      13.636764      40.312508      133.951327      10.710738      16.742103
8.400000      0.462923      0.463659      13.717928      40.529048      134.643081      10.795845      16.893717
8.500000      0.464067      0.464792      13.798256      40.741296      135.318414      10.880754      17.044968
8.600000      0.465178      0.465893      13.877752      40.949293      135.977494      10.965466      17.195854
8.700000      0.466257      0.466962      13.956423      41.153082      136.620489      11.049982      17.346376
8.800000      0.467306      0.468000      14.034275      41.352703      137.247564      11.134303      17.496534
8.900000      0.468324      0.469008      14.111314      41.548199      137.858887      11.218430      17.646329
9.000000      0.469312      0.469985      14.187545      41.739610      138.454623      11.302362      17.795761
9.100000      0.470271      0.470932      14.262975      41.926980      139.034938      11.386102      17.944829
9.200000      0.471200      0.471850      14.337611      42.110348      139.599997      11.469649      18.093535
9.300000      0.472101      0.472740      14.411458      42.289756      140.149966      11.553005      18.241877
9.400000      0.472973      0.473601      14.484522      42.465246      140.685008      11.636170      18.389857
9.500000      0.473818      0.474434      14.556810      42.636858      141.205287      11.719145      18.537474
9.600000      0.474636      0.475240      14.628327      42.804635      141.710967      11.801930      18.684729
9.700000      0.475427      0.476019      14.699081      42.968615      142.202210      11.884526      18.831621
9.800000      0.476191      0.476772      14.769077      43.128842      142.679178      11.966934      18.978152
9.900000      0.476930      0.477498      14.838322      43.285354      143.142034      12.049155      19.124320
10.000000      0.477643      0.478199      14.906821      43.438193      143.590938      12.131189      19.270127
10.100000      0.478331      0.478874      14.974581      43.587399      144.026050      12.213037      19.415572
10.200000      0.478993      0.479525      15.041609      43.733012      144.447530      12.294700      19.560656
10.300000      0.479632      0.480151      15.107911      43.875073      144.855538      12.376178      19.705379
10.400000      0.480246      0.480753      15.173492      44.013622      145.250231      12.457473      19.849741
10.500000      0.480837      0.481331      15.238360      44.148697      145.631767      12.538584      19.993743
10.600000      0.481405      0.481885      15.302520      44.280340      146.000302      12.619512      20.137383
10.700000      0.481949      0.482417      15.365979      44.408590      146.355994      12.700259      20.280664
10.800000      0.482471      0.482925      15.428743      44.533485      146.698998      12.780825      20.423584
10.900000      0.482971      0.483412      15.490818      44.655065      147.029467      12.861210      20.566144
11.000000      0.483449      0.483876      15.552211      44.773370      147.347556      12.941415      20.708345
11.100000      0.483905      0.484319      15.612928      44.888437      147.653418      13.021441      20.850186
11.200000      0.484340      0.484741      15.672976      45.000306      147.947204      13.101288      20.991668
11.300000      0.484754      0.485141      15.732360      45.109015      148.229067      13.180958      21.132790
11.400000      0.485147      0.485521      15.791086      45.214602      148.499157      13.260450      21.273554
11.500000      0.485520      0.485880      15.849162      45.317106      148.757623      13.339766      21.413959
11.600000      0.485873      0.486219      15.906594      45.416563      149.004613      13.418906      21.554006
11.700000      0.486207      0.486538      15.963386      45.513012      149.240276      13.497870      21.693695
11.800000      0.486521      0.486838      16.019547      45.606490      149.464759      13.576660      21.833025
11.900000      0.486815      0.487119      16.075082      45.697035      149.678207      13.655277      21.971998
12.000000      0.487091      0.487381      16.129997      45.784683      149.880766      13.733720      22.110613
12.100000      0.487349      0.487624      16.184298      45.869471      150.072580      13.811990      22.248871
12.200000      0.487588      0.487849      16.237992      45.951435      150.253791      13.890088      22.386772
12.300000      0.487809      0.488055      16.291085      46.030613      150.424542      13.968015      22.524316
12.400000      0.488013      0.488244      16.343583      46.107040      150.584974      14.045771      22.661503
12.500000      0.488199      0.488416      16.395492      46.180751      150.735228      14.123357      22.798334
12.600000      0.488367      0.488570      16.446819      46.251784      150.875442      14.200774      22.934809
12.700000      0.488519      0.488707      16.497568      46.320172      151.005756      14.278022      23.070929
12.800000      0.488654      0.488827      16.547747      46.385951      151.126305      14.355101      23.206692
12.900000      0.488773      0.488931      16.597362      46.449156      151.237227      14.432013      23.342101
13.000000      0.488875      0.489018      16.646418      46.509823      151.338656      14.508758      23.477154
13.100000      0.488962      0.489090      16.694922      46.567984      151.430727      14.585337      23.611852
13.200000      0.489033      0.489145      16.742879      46.623674      151.513573      14.661750      23.746196
13.300000      0.489088      0.489185      16.790296      46.676928      151.587327      14.737997      23.880186
13.400000      0.489128      0.489210      16.837178      46.727779      151.652118      14.814081      24.013821
13.500000      0.489153      0.489220      16.883531      46.776261      151.708078      14.890000      24.147103
13.600000      0.489163      0.489215      16.929362      46.822406      151.755334      14.965756      24.280031
13.700000      0.489159      0.489195      16.974676      46.866248      151.794017      15.041349      24.412606
13.800000      0.489140      0.489161      17.019479      46.907819      151.824251      15.116781      24.544828
13.900000      0.489107      0.489112      17.063777      46.947152      151.846163      15.192051      24.676698
14.000000      0.489060      0.489050      17.107576      46.984278      151.859878      15.267159      24.808215
14.100000      0.488999      0.488973      17.150880      47.019231      151.865519      15.342108      24.939380
14.200000      0.488925      0.488883      17.193697      47.052041      151.863210      15.416897      25.070193
14.300000      0.488837      0.488780      17.236032      47.082739      151.853071      15.491527      25.200655
14.400000      0.488737      0.488664      17.277890      47.111358      151.835223      15.565998      25.330765
14.500000      0.488623      0.488535      17.319278      47.137928      151.809786      15.640311      25.460524
14.600000      0.488497      0.488392      17.360200      47.162479      151.776878      15.714467      25.589933
14.700000      0.488358      0.488238      17.400663      47.185042      151.736617      15.788466      25.718991
14.800000      0.488207      0.488070      17.440671      47.205647      151.689118      15.862309      25.847700
14.900000      0.488044      0.487891      17.480231      47.224324      151.634496      15.935996      25.976058
15.000000      0.487868      0.487700      17.519348      47.241102      151.572866      16.009528      26.104067
15.100000      0.487681      0.487497      17.558027      47.256011      151.504341      16.082905      26.231727
15.200000      0.487482      0.487282      17.596275      47.269079      151.429033      16.156129      26.359038
15.300000      0.487272      0.487055      17.634095      47.280336      151.347052      16.229199      26.486001
15.400000      0.487050      0.486818      17.671494      47.289810      151.258508      16.302117      26.612615
15.500000      0.486818      0.486569      17.708477      47.297529      151.163510      16.374882      26.738882
15.600000      0.486574      0.486309      17.745049      47.303521      151.062166      16.447496      26.864800
15.700000      0.486320      0.486039      17.781215      47.307814      150.954582      16.519958      26.990372
15.800000      0.486055      0.485757      17.816982      47.310436      150.840864      16.592270      27.115597
15.900000      0.485780      0.485466      17.852353      47.311413      150.721115      16.664432      27.240475
16.000000      0.485494      0.485164      17.887334      47.310773      150.595441      16.736444      27.365006
16.100000      0.485198      0.484852      17.921930      47.308542      150.463942      16.808307      27.489192
16.200000      0.484893      0.484530      17.956147      47.304746      150.326720      16.880022      27.613032
16.300000      0.484577      0.484198      17.989989      47.299413      150.183875      16.951590      27.736526
16.400000      0.484252      0.483856      18.023461      47.292567      150.035507      17.023009      27.859676
16.500000      0.483917      0.483505      18.056568      47.284234      149.881714      17.094282      27.982481
16.600000      0.483574      0.483145      18.089316      47.274440      149.722592      17.165409      28.104942
16.700000      0.483220      0.482775      18.121709      47.263209      149.558238      17.236390      28.227059
16.800000      0.482858      0.482396      18.153752      47.250567      149.388746      17.307226      28.348832
16.900000      0.482487      0.482008      18.185449      47.236539      149.214211      17.377918      28.470261
17.000000      0.482107      0.481612      18.216807      47.221148      149.034726      17.448465      28.591348
17.100000      0.481718      0.481207      18.247829      47.204418      148.850382      17.518869      28.712093
17.200000      0.481321      0.480793      18.278519      47.186374      148.661271      17.589129      28.832495
17.300000      0.480916      0.480371      18.308884      47.167039      148.467482      17.659247      28.952555
17.400000      0.480502      0.479941      18.338927      47.146437      148.269105      17.729223      29.072273
17.500000      0.480080      0.479502      18.368653      47.124589      148.066226      17.799058      29.191651
17.600000      0.479650      0.479056      18.398067      47.101520      147.858933      17.868751      29.310688
17.700000      0.479213      0.478601      18.427173      47.077252      147.647313      17.938304      29.429384
17.800000      0.478767      0.478139      18.455976      47.051807      147.431449      18.007717      29.547740
17.900000      0.478314      0.477670      18.484479      47.025208      147.211425      18.076991      29.665756
18.000000      0.477854      0.477193      18.512689      46.997475      146.987326      18.146125      29.783433
18.100000      0.477386      0.476708      18.540608      46.968631      146.759232      18.215121      29.900771
18.200000      0.476911      0.476216      18.568242      46.938697      146.527224      18.283979      30.017770
18.300000      0.476429      0.475718      18.595594      46.907694      146.291383      18.352700      30.134432
18.400000      0.475940      0.475212      18.622669      46.875643      146.051788      18.421284      30.250755
18.500000      0.475444      0.474699      18.649471      46.842564      145.808517      18.489731      30.366741
18.600000      0.474942      0.474180      18.676005      46.808479      145.561647      18.558042      30.482389
18.700000      0.474432      0.473654      18.702274      46.773407      145.311254      18.626218      30.597701
18.800000      0.473916      0.473121      18.728282      46.737367      145.057413      18.694259      30.712677
18.900000      0.473394      0.472582      18.754035      46.700381      144.800200      18.762165      30.827316
19.000000      0.472865      0.472036      18.779535      46.662466      144.539687      18.829937      30.941620
19.100000      0.472331      0.471485      18.804787      46.623643      144.275947      18.897576      31.055589
19.200000      0.471790      0.470927      18.829794      46.583930      144.009052      18.965081      31.169223
19.300000      0.471243      0.470363      18.854561      46.543347      143.739073      19.032454      31.282523
19.400000      0.470690      0.469794      18.879092      46.501911      143.466079      19.099695      31.395489
19.500000      0.470131      0.469218      18.903391      46.459641      143.190139      19.166805      31.508121
19.600000      0.469567      0.468637      18.927460      46.416555      142.911322      19.233783      31.620419
19.700000      0.468997      0.468051      18.951305      46.372670      142.629694      19.300630      31.732385
19.800000      0.468421      0.467458      18.974928      46.328006      142.345323      19.367347      31.844019
19.900000      0.467841      0.466861      18.998334      46.282578      142.058273      19.433934      31.955320
20.000000      0.467254      0.466258      19.021527      46.236405      141.768609      19.500392      32.066290
20.100000      0.466663      0.465650      19.044509      46.189502      141.476396      19.566722      32.176929
20.200000      0.466067      0.465036      19.067285      46.141888      141.181695      19.632922      32.287237
20.300000      0.465465      0.464418      19.089858      46.093578      140.884570      19.698995      32.397214
20.400000      0.464859      0.463795      19.112231      46.044588      140.585082      19.764941      32.506862
20.500000      0.464247      0.463167      19.134409      45.994936      140.283290      19.830759      32.616180
20.600000      0.463631      0.462534      19.156394      45.944637      139.979255      19.896451      32.725169
20.700000      0.463011      0.461897      19.178190      45.893706      139.673036      19.962016      32.833829
20.800000      0.462385      0.461255      19.199801      45.842160      139.364690      20.027456      32.942161
20.900000      0.461755      0.460608      19.221229      45.790013      139.054275      20.092771      33.050165
21.000000      0.461121      0.459957      19.242479      45.737280      138.741848      20.157961      33.157842
21.100000      0.460483      0.459302      19.263553      45.683977      138.427464      20.223027      33.265191
21.200000      0.459840      0.458642      19.284455      45.630119      138.111178      20.287969      33.372214
21.300000      0.459193      0.457979      19.305187      45.575719      137.793045      20.352787      33.478911
21.400000      0.458542      0.457311      19.325754      45.520792      137.473118      20.417482      33.585282
21.500000      0.457886      0.456639      19.346158      45.465353      137.151449      20.482055      33.691327
21.600000      0.457227      0.455963      19.366403      45.409414      136.828091      20.546505      33.797048
21.700000      0.456564      0.455284      19.386491      45.352991      136.503095      20.610834      33.902444
21.800000      0.455898      0.454600      19.406425      45.296096      136.176511      20.675041      34.007517
21.900000      0.455227      0.453913      19.426209      45.238744      135.848389      20.739128      34.112266
22.000000      0.454553      0.453223      19.445846      45.180946      135.518778      20.803094      34.216691
22.100000      0.453875      0.452528      19.465338      45.122717      135.187727      20.866940      34.320794
22.200000      0.453194      0.451831      19.484689      45.064069      134.855283      20.930667      34.424575
22.300000      0.452510      0.451129      19.503900      45.005014      134.521494      20.994274      34.528034
22.400000      0.451822      0.450425      19.522977      44.945566      134.186404      21.057762      34.631171
22.500000      0.451130      0.449717      19.541920      44.885736      133.850061      21.121133      34.733988
22.600000      0.450436      0.449006      19.560733      44.825537      133.512509      21.184385      34.836484
22.700000      0.449738      0.448292      19.579418      44.764980      133.173793      21.247519      34.938660
22.800000      0.449037      0.447575      19.597979      44.704078      132.833955      21.310537      35.040517
22.900000      0.448334      0.446855      19.616418      44.642842      132.493039      21.373438      35.142054
23.000000      0.447627      0.446132      19.634737      44.581283      132.151088      21.436222      35.243273
23.100000      0.446917      0.445406      19.652940      44.519413      131.808142      21.498891      35.344174
23.200000      0.446205      0.444677      19.671029      44.457243      131.464243      21.561444      35.444756
23.300000      0.445490      0.443945      19.689007      44.394784      131.119432      21.623882      35.545022
23.400000      0.444772      0.443211      19.706875      44.332047      130.773748      21.686205      35.644971
23.500000      0.444051      0.442474      19.724637      44.269042      130.427230      21.748414      35.744603
23.600000      0.443328      0.441734      19.742295      44.205780      130.079918      21.810509      35.843920
23.700000      0.442602      0.440992      19.759852      44.142272      129.731848      21.872490      35.942921
23.800000      0.441874      0.440248      19.777309      44.078526      129.383059      21.934359      36.041607
23.900000      0.441143      0.439501      19.794670      44.014554      129.033588      21.996114      36.139979
24.000000      0.440410      0.438752      19.811937      43.950366      128.683470      22.057758      36.238036
24.100000      0.439675      0.438000      19.829112      43.885970      128.332741      22.119289      36.335780
24.200000      0.438937      0.437246      19.846197      43.821378      127.981436      22.180708      36.433211
24.300000      0.438198      0.436490      19.863195      43.756597      127.629591      22.242017      36.530330
24.400000      0.437456      0.435732      19.880108      43.691637      127.277238      22.303215      36.627136
24.500000      0.436712      0.434972      19.896938      43.626509      126.924412      22.364302      36.723630
24.600000      0.435966      0.434210      19.913687      43.561219      126.571145      22.425279      36.819814
24.700000      0.435217      0.433446      19.930358      43.495778      126.217470      22.486146      36.915687
24.800000      0.434467      0.432680      19.946953      43.430195      125.863418      22.546904      37.011249
24.900000      0.433716      0.431912      19.963473      43.364477      125.509022      22.607554      37.106502
25.000000      0.432962      0.431142      19.979922      43.298633      125.154311      22.668094      37.201445
25.100000      0.432206      0.430371      19.996300      43.232672      124.799316      22.728527      37.296080
25.200000      0.431449      0.429597      20.012610      43.166601      124.444067      22.788851      37.390406
25.300000      0.430690      0.428823      20.028855      43.100430      124.088593      22.849068      37.484425
25.400000      0.429929      0.428046      20.045035      43.034165      123.732923      22.909178      37.578136
25.500000      0.429167      0.427268      20.061153      42.967815      123.377086      22.969181      37.671540
25.600000      0.428403      0.426488      20.077212      42.901387      123.021109      23.029078      37.764638
25.700000      0.427638      0.425707      20.093212      42.834889      122.665019      23.088869      37.857431
25.800000      0.426871      0.424924      20.109155      42.768328      122.308845      23.148554      37.949917
25.900000      0.426103      0.424140      20.125045      42.701712      121.952611      23.208134      38.042099
26.000000      0.425333      0.423355      20.140882      42.635047      121.596344      23.267608      38.133977
26.100000      0.424562      0.422568      20.156668      42.568341      121.240070      23.326979      38.225551
26.200000      0.423790      0.421780      20.172405      42.501602      120.883814      23.386245      38.316821
26.300000      0.423016      0.420991      20.188095      42.434834      120.527600      23.445407      38.407788
26.400000      0.422241      0.420201      20.203739      42.368047      120.171452      23.504465      38.498453
26.500000      0.421465      0.419409      20.219340      42.301245      119.815396      23.563420      38.588817
26.600000      0.420688      0.418616      20.234898      42.234436      119.459453      23.622272      38.678878
26.700000      0.419910      0.417822      20.250416      42.167625      119.103646      23.681022      38.768639
26.800000      0.419131      0.417028      20.265896      42.100820      118.748000      23.739670      38.858100
26.900000      0.418350      0.416232      20.281338      42.034026      118.392535      23.798215      38.947260
27.000000      0.417569      0.415435      20.296745      41.967250      118.037273      23.856660      39.036121
27.100000      0.416787      0.414637      20.312118      41.900497      117.682236      23.915003      39.124684
27.200000      0.416003      0.413839      20.327458      41.833773      117.327444      23.973245      39.212948
27.300000      0.415219      0.413039      20.342768      41.767085      116.972919      24.031386      39.300914
27.400000      0.414434      0.412239      20.358048      41.700437      116.618680      24.089428      39.388583
27.500000      0.413649      0.411438      20.373300      41.633835      116.264748      24.147369      39.475955
27.600000      0.412862      0.410636      20.388526      41.567285      115.911141      24.205211      39.563030
27.700000      0.412075      0.409833      20.403728      41.500792      115.557879      24.262954      39.649810
27.800000      0.411287      0.409030      20.418905      41.434362      115.204981      24.320598      39.736294
27.900000      0.410498      0.408226      20.434061      41.367999      114.852464      24.378144      39.822484
28.000000      0.409708      0.407421      20.449196      41.301708      114.500348      24.435591      39.908379
28.100000      0.408918      0.406616      20.464311      41.235495      114.148649      24.492940      39.993981
28.200000      0.408128      0.405811      20.479409      41.169365      113.797385      24.550192      40.079289
28.300000      0.407337      0.405004      20.494490      41.103322      113.446573      24.607346      40.164305
28.400000      0.406545      0.404198      20.509556      41.037370      113.096230      24.664403      40.249028
28.500000      0.405753      0.403390      20.524607      40.971516      112.746371      24.721364      40.333460
28.600000      0.404960      0.402583      20.539646      40.905762      112.397014      24.778228      40.417601
28.700000      0.404167      0.401775      20.554674      40.840114      112.048173      24.834997      40.501451
28.800000      0.403373      0.400966      20.569691      40.774576      111.699864      24.891669      40.585010
28.900000      0.402580      0.400158      20.584699      40.709153      111.352102      24.948247      40.668280
29.000000      0.401785      0.399348      20.599699      40.643847      111.004902      25.004729      40.751261
29.100000      0.400991      0.398539      20.614692      40.578665      110.658278      25.061116      40.833954
29.200000      0.400196      0.397729      20.629680      40.513608      110.312245      25.117409      40.916358
29.300000      0.399401      0.396919      20.644663      40.448683      109.966816      25.173607      40.998475
29.400000      0.398605      0.396109      20.659643      40.383892      109.622005      25.229712      41.080305
29.500000      0.397810      0.395299      20.674621      40.319239      109.277825      25.285723      41.161849
29.600000      0.397014      0.394489      20.689598      40.254728      108.934289      25.341641      41.243106
29.700000      0.396218      0.393678      20.704575      40.190363      108.591411      25.397466      41.324078
29.800000      0.395422      0.392867      20.719553      40.126147      108.249201      25.453198      41.404765
29.900000      0.394625      0.392056      20.734533      40.062083      107.907673      25.508837      41.485168
30.000000      0.393829      0.391245      20.749516      39.998176      107.566839      25.564385      41.565287
30.100000      0.393032      0.390434      20.764503      39.934428      107.226709      25.619841      41.645123
30.200000      0.392236      0.389623      20.779495      39.870843      106.887296      25.675205      41.724676
30.300000      0.391439      0.388813      20.794494      39.807425      106.548611      25.730478      41.803947
30.400000      0.390643      0.388002      20.809499      39.744175      106.210664      25.785660      41.882936
30.500000      0.389846      0.387191      20.824512      39.681098      105.873467      25.840751      41.961643
30.600000      0.389050      0.386380      20.839534      39.618196      105.537029      25.895752      42.040071
30.700000      0.388253      0.385569      20.854566      39.555472      105.201361      25.950663      42.118218
30.800000      0.387457      0.384759      20.869608      39.492929      104.866472      26.005484      42.196085
30.900000      0.386661      0.383948      20.884662      39.430571      104.532373      26.060215      42.273674
31.000000      0.385865      0.383138      20.899729      39.368399      104.199073      26.114857      42.350984
31.100000      0.385069      0.382328      20.914808      39.306416      103.866581      26.169410      42.428016
31.200000      0.384273      0.381518      20.929902      39.244626      103.534905      26.223874      42.504770
31.300000      0.383477      0.380708      20.945011      39.183031      103.204056      26.278250      42.581248
31.400000      0.382682      0.379898      20.960135      39.121632      102.874041      26.332538      42.657450
31.500000      0.381886      0.379089      20.975276      39.060434      102.544869      26.386738      42.733375
31.600000      0.381091      0.378280      20.990434      38.999437      102.216548      26.440850      42.809026
31.700000      0.380297      0.377471      21.005610      38.938645      101.889086      26.494875      42.884401
31.800000      0.379502      0.376663      21.020805      38.878060      101.562491      26.548812      42.959503
31.900000      0.378708      0.375855      21.036020      38.817684      101.236769      26.602663      43.034330
32.000000      0.377914      0.375047      21.051254      38.757519      100.911930      26.656427      43.108885
32.100000      0.377120      0.374240      21.066510      38.697567      100.587978      26.710105      43.183167
32.200000      0.376327      0.373433      21.081787      38.637831      100.264923      26.763697      43.257177
32.300000      0.375534      0.372626      21.097086      38.578312      99.942770      26.817203      43.330916
32.400000      0.374742      0.371820      21.112409      38.519012      99.621526      26.870624      43.404383
32.500000      0.373950      0.371014      21.127755      38.459934      99.301198      26.923959      43.477581
32.600000      0.373158      0.370209      21.143125      38.401079      98.981791      26.977209      43.550508
32.700000      0.372367      0.369404      21.158520      38.342450      98.663312      27.030375      43.623166
32.800000      0.371576      0.368600      21.173941      38.284047      98.345766      27.083456      43.695556
32.900000      0.370786      0.367796      21.189388      38.225872      98.029160      27.136452      43.767677
33.000000      0.369996      0.366993      21.204862      38.167928      97.713498      27.189365      43.839530
33.100000      0.369206      0.366190      21.220363      38.110216      97.398787      27.242194      43.911116
33.200000      0.368417      0.365387      21.235891      38.052737      97.085031      27.294939      43.982436
33.300000      0.367629      0.364586      21.251449      37.995494      96.772235      27.347602      44.053490
33.400000      0.366841      0.363784      21.267035      37.938487      96.460405      27.400181      44.124278
33.500000      0.366054      0.362984      21.282651      37.881718      96.149545      27.452677      44.194801
33.600000      0.365267      0.362184      21.298296      37.825188      95.839659      27.505091      44.265060
33.700000      0.364481      0.361384      21.313973      37.768900      95.530753      27.557423      44.335055
33.800000      0.363695      0.360585      21.329680      37.712853      95.222830      27.609672      44.404787
33.900000      0.362910      0.359787      21.345419      37.657050      94.915894      27.661840      44.474256
34.000000      0.362125      0.358990      21.361190      37.601492      94.609949      27.713926      44.543463
34.100000      0.361342      0.358193      21.376993      37.546180      94.305000      27.765931      44.612408
34.200000      0.360558      0.357396      21.392829      37.491114      94.001050      27.817855      44.681092
34.300000      0.359776      0.356601      21.408699      37.436298      93.698102      27.869698      44.749516
34.400000      0.358994      0.355806      21.424603      37.381730      93.396161      27.921460      44.817679
34.500000      0.358213      0.355012      21.440541      37.327413      93.095228      27.973142      44.885583
34.600000      0.357432      0.354218      21.456513      37.273347      92.795308      28.024744      44.953228
34.700000      0.356652      0.353426      21.472521      37.219534      92.496404      28.076266      45.020615
34.800000      0.355873      0.352634      21.488564      37.165974      92.198518      28.127709      45.087744
34.900000      0.355095      0.351842      21.504643      37.112669      91.901653      28.179071      45.154616
35.000000      0.354317      0.351052      21.520758      37.059619      91.605812      28.230355      45.221231
35.100000      0.353540      0.350262      21.536910      37.006825      91.310997      28.281559      45.287590
35.200000      0.352764      0.349473      21.553099      36.954288      91.017212      28.332685      45.353693
35.300000      0.351988      0.348685      21.569325      36.902008      90.724457      28.383732      45.419541
35.400000      0.351213      0.347898      21.585589      36.849987      90.432736      28.434701      45.485135
35.500000      0.350439      0.347111      21.601891      36.798225      90.142050      28.485592      45.550474
35.600000      0.349666      0.346325      21.618231      36.746723      89.852402      28.536405      45.615561
35.700000      0.348894      0.345540      21.634610      36.695482      89.563793      28.587140      45.680394
35.800000      0.348122      0.344756      21.651028      36.644502      89.276226      28.637798      45.744975
35.900000      0.347351      0.343973      21.667485      36.593783      88.989701      28.688378      45.809305
36.000000      0.346581      0.343191      21.683982      36.543327      88.704220      28.738882      45.873383
36.100000      0.345812      0.342409      21.700519      36.493134      88.419785      28.789309      45.937210
36.200000      0.345044      0.341628      21.717096      36.443204      88.136398      28.839659      46.000788
36.300000      0.344276      0.340849      21.733713      36.393538      87.854058      28.889932      46.064116
36.400000      0.343510      0.340070      21.750371      36.344136      87.572769      28.940130      46.127195
36.500000      0.342744      0.339292      21.767069      36.294999      87.292530      28.990251      46.190025
36.600000      0.341979      0.338515      21.783809      36.246128      87.013343      29.040297      46.252608
36.700000      0.341215      0.337738      21.800590      36.197521      86.735208      29.090268      46.314943
36.800000      0.340452      0.336963      21.817413      36.149181      86.458127      29.140163      46.377032
36.900000      0.339690      0.336189      21.834278      36.101107      86.182100      29.189982      46.438874
37.000000      0.338928      0.335415      21.851184      36.053300      85.907128      29.239727      46.500471
37.100000      0.338168      0.334643      21.868133      36.005760      85.633211      29.289397      46.561822
37.200000      0.337408      0.333871      21.885124      35.958486      85.360349      29.338993      46.622929
37.300000      0.336650      0.333101      21.902158      35.911480      85.088544      29.388515      46.683792
37.400000      0.335892      0.332331      21.919235      35.864742      84.817795      29.437962      46.744412
37.500000      0.335135      0.331563      21.936355      35.818271      84.548103      29.487335      46.804788
37.600000      0.334379      0.330795      21.953518      35.772068      84.279468      29.536635      46.864923
37.700000      0.333624      0.330028      21.970724      35.726133      84.011890      29.585861      46.924815
37.800000      0.332870      0.329263      21.987974      35.680466      83.745368      29.635014      46.984466
37.900000      0.332117      0.328498      22.005267      35.635068      83.479904      29.684093      47.043876
38.000000      0.331365      0.327734      22.022604      35.589938      83.215496      29.733100      47.103047
38.100000      0.330614      0.326971      22.039985      35.545076      82.952145      29.782034      47.161977
38.200000      0.329864      0.326210      22.057410      35.500483      82.689850      29.830895      47.220669
38.300000      0.329115      0.325449      22.074879      35.456158      82.428610      29.879685      47.279122
38.400000      0.328367      0.324689      22.092392      35.412102      82.168426      29.928402      47.337337
38.500000      0.327620      0.323931      22.109950      35.368314      81.909298      29.977046      47.395315
38.600000      0.326874      0.323173      22.127552      35.324794      81.651223      30.025620      47.453056
38.700000      0.326128      0.322417      22.145199      35.281543      81.394203      30.074121      47.510560
38.800000      0.325384      0.321661      22.162890      35.238560      81.138235      30.122551      47.567829
38.900000      0.324641      0.320907      22.180626      35.195846      80.883320      30.170910      47.624863
39.000000      0.323899      0.320153      22.198407      35.153399      80.629457      30.219198      47.681662
39.100000      0.323158      0.319401      22.216233      35.111220      80.376644      30.267415      47.738227
39.200000      0.322418      0.318650      22.234104      35.069309      80.124882      30.315562      47.794558
39.300000      0.321679      0.317899      22.252020      35.027666      79.874168      30.363638      47.850657
39.400000      0.320941      0.317150      22.269981      34.986290      79.624502      30.411643      47.906523
39.500000      0.320204      0.316402      22.287987      34.945182      79.375884      30.459579      47.962157
39.600000      0.319468      0.315655      22.306039      34.904340      79.128311      30.507444      48.017559
39.700000      0.318733      0.314909      22.324135      34.863765      78.881782      30.555240      48.072731
39.800000      0.317999      0.314164      22.342277      34.823457      78.636298      30.602966      48.127673
39.900000      0.317266      0.313420      22.360464      34.783415      78.391855      30.650623      48.182385
40.000000      0.316535      0.312678      22.378697      34.743639      78.148453      30.698210      48.236868
40.100000      0.315804      0.311936      22.396975      34.704129      77.906091      30.745729      48.291122
40.200000      0.315074      0.311196      22.415298      34.664885      77.664766      30.793178      48.345148
40.300000      0.314346      0.310456      22.433666      34.625905      77.424479      30.840559      48.398946
40.400000      0.313619      0.309718      22.452080      34.587191      77.185226      30.887871      48.452518
40.500000      0.312892      0.308981      22.470540      34.548741      76.947007      30.935115      48.505863
40.600000      0.312167      0.308245      22.489045      34.510555      76.709821      30.982290      48.558983
40.700000      0.311443      0.307510      22.507595      34.472633      76.473664      31.029398      48.611877
40.800000      0.310719      0.306776      22.526190      34.434974      76.238537      31.076438      48.664546
40.900000      0.309997      0.306044      22.544831      34.397578      76.004436      31.123410      48.716991
41.000000      0.309277      0.305312      22.563517      34.360445      75.771361      31.170314      48.769212
41.100000      0.308557      0.304582      22.582249      34.323574      75.539309      31.217151      48.821211
41.200000      0.307838      0.303852      22.601026      34.286965      75.308280      31.263921      48.872986
41.300000      0.307120      0.303124      22.619848      34.250617      75.078270      31.310624      48.924540
41.400000      0.306404      0.302397      22.638715      34.214530      74.849278      31.357260      48.975872
41.500000      0.305688      0.301671      22.657627      34.178704      74.621302      31.403829      49.026983
41.600000      0.304974      0.300947      22.676585      34.143137      74.394341      31.450332      49.077874
41.700000      0.304261      0.300223      22.695587      34.107830      74.168391      31.496768      49.128545
41.800000      0.303548      0.299501      22.714635      34.072782      73.943452      31.543138      49.178996
41.900000      0.302837      0.298779      22.733727      34.037993      73.719521      31.589442      49.229229
42.000000      0.302128      0.298059      22.752865      34.003461      73.496596      31.635680      49.279243
42.100000      0.301419      0.297340      22.772047      33.969187      73.274675      31.681852      49.329040
42.200000      0.300711      0.296622      22.791274      33.935170      73.053755      31.727958      49.378620
42.300000      0.300005      0.295906      22.810545      33.901409      72.833836      31.773999      49.427983
42.400000      0.299299      0.295190      22.829862      33.867904      72.614913      31.819975      49.477130
42.500000      0.298595      0.294476      22.849222      33.834655      72.396986      31.865886      49.526061
42.600000      0.297892      0.293763      22.868628      33.801660      72.180052      31.911731      49.574778
42.700000      0.297190      0.293051      22.888077      33.768919      71.964109      31.957512      49.623280
42.800000      0.296489      0.292340      22.907571      33.736432      71.749154      32.003228      49.671568
42.900000      0.295789      0.291630      22.927109      33.704198      71.535185      32.048880      49.719642
43.000000      0.295090      0.290922      22.946691      33.672216      71.322200      32.094467      49.767504
43.100000      0.294393      0.290214      22.966316      33.640486      71.110196      32.139990      49.815153
43.200000      0.293696      0.289508      22.985986      33.609008      70.899172      32.185448      49.862591
43.300000      0.293001      0.288803      23.005700      33.577779      70.689123      32.230843      49.909818
43.400000      0.292307      0.288099      23.025457      33.546801      70.480049      32.276174      49.956834
43.500000      0.291614      0.287397      23.045257      33.516072      70.271947      32.321441      50.003639
43.600000      0.290922      0.286695      23.065101      33.485592      70.064814      32.366645      50.050235
43.700000      0.290232      0.285995      23.084989      33.455359      69.858647      32.411785      50.096622
43.800000      0.289542      0.285296      23.104919      33.425374      69.653445      32.456863      50.142801
43.900000      0.288854      0.284598      23.124893      33.395636      69.449204      32.501877      50.188771
44.000000      0.288166      0.283901      23.144909      33.366144      69.245922      32.546828      50.234534
44.100000      0.287480      0.283206      23.164968      33.336897      69.043597      32.591716      50.280090
44.200000      0.286795      0.282511      23.185070      33.307895      68.842226      32.636542      50.325439
44.300000      0.286112      0.281818      23.205214      33.279136      68.641806      32.681305      50.370583
44.400000      0.285429      0.281126      23.225400      33.250621      68.442334      32.726005      50.415521
44.500000      0.284747      0.280435      23.245629      33.222349      68.243809      32.770644      50.460255
44.600000      0.284067      0.279745      23.265900      33.194318      68.046227      32.815220      50.504784
44.700000      0.283388      0.279057      23.286212      33.166529      67.849586      32.859734      50.549110
44.800000      0.282710      0.278370      23.306567      33.138980      67.653883      32.904187      50.593232
44.900000      0.282033      0.277683      23.326963      33.111671      67.459115      32.948578      50.637151
45.000000      0.281357      0.276999      23.347400      33.084601      67.265280      32.992907      50.680869
45.100000      0.280683      0.276315      23.367879      33.057769      67.072374      33.037175      50.724385
45.200000      0.280009      0.275632      23.388399      33.031175      66.880396      33.081381      50.767699
45.300000      0.279337      0.274951      23.408959      33.004817      66.689342      33.125526      50.810813
45.400000      0.278666      0.274271      23.429561      32.978696      66.499210      33.169610      50.853727
45.500000      0.277996      0.273592      23.450203      32.952810      66.309997      33.213633      50.896442
45.600000      0.277327      0.272914      23.470886      32.927158      66.121700      33.257596      50.938957
45.700000      0.276659      0.272237      23.491608      32.901741      65.934316      33.301498      50.981274
45.800000      0.275993      0.271562      23.512371      32.876556      65.747843      33.345339      51.023393
45.900000      0.275327      0.270888      23.533174      32.851604      65.562277      33.389120      51.065315
46.000000      0.274663      0.270215      23.554017      32.826883      65.377616      33.432840      51.107039
46.100000      0.274000      0.269543      23.574899      32.802393      65.193858      33.476501      51.148568
46.200000      0.273338      0.268872      23.595820      32.778133      65.010998      33.520101      51.189900
46.300000      0.272677      0.268203      23.616781      32.754102      64.829035      33.563641      51.231037
46.400000      0.272018      0.267534      23.637780      32.730300      64.647965      33.607122      51.271979
46.500000      0.271359      0.266867      23.658819      32.706725      64.467786      33.650543      51.312727
46.600000      0.270702      0.266201      23.679896      32.683378      64.288495      33.693904      51.353282
46.700000      0.270046      0.265537      23.701011      32.660256      64.110088      33.737207      51.393642
46.800000      0.269391      0.264873      23.722165      32.637359      63.932564      33.780449      51.433811
46.900000      0.268737      0.264211      23.743356      32.614687      63.755918      33.823633      51.473787
47.000000      0.268084      0.263550      23.764586      32.592239      63.580149      33.866757      51.513571
47.100000      0.267433      0.262890      23.785853      32.570014      63.405253      33.909823      51.553164
47.200000      0.266782      0.262231      23.807157      32.548011      63.231228      33.952830      51.592566
47.300000      0.266133      0.261573      23.828499      32.526228      63.058070      33.995778      51.631779
47.400000      0.265485      0.260917      23.849877      32.504667      62.885776      34.038668      51.670801
47.500000      0.264838      0.260262      23.871293      32.483325      62.714344      34.081499      51.709635
47.600000      0.264192      0.259608      23.892745      32.462202      62.543771      34.124271      51.748280
47.700000      0.263548      0.258955      23.914233      32.441297      62.374053      34.166986      51.786736
47.800000      0.262904      0.258303      23.935757      32.420609      62.205189      34.209642      51.825005
47.900000      0.262262      0.257653      23.957318      32.400138      62.037174      34.252241      51.863088
48.000000      0.261621      0.257003      23.978914      32.379882      61.870006      34.294781      51.900983
48.100000      0.260981      0.256355      24.000545      32.359841      61.703682      34.337264      51.938693
48.200000      0.260342      0.255708      24.022212      32.340014      61.538200      34.379689      51.976216
48.300000      0.259704      0.255062      24.043914      32.320399      61.373555      34.422056      52.013555
48.400000      0.259068      0.254418      24.065651      32.300998      61.209745      34.464366      52.050710
48.500000      0.258432      0.253774      24.087422      32.281807      61.046768      34.506619      52.087680
48.600000      0.257798      0.253132      24.109227      32.262827      60.884620      34.548815      52.124467
48.700000      0.257165      0.252491      24.131067      32.244057      60.723298      34.590953      52.161071
48.800000      0.256533      0.251851      24.152941      32.225496      60.562800      34.633035      52.197492
48.900000      0.255902      0.251213      24.174848      32.207143      60.403122      34.675059      52.233731
49.000000      0.255272      0.250575      24.196789      32.188998      60.244261      34.717027      52.269789
49.100000      0.254643      0.249939      24.218763      32.171058      60.086215      34.758938      52.305666
49.200000      0.254016      0.249303      24.240770      32.153324      59.928980      34.800793      52.341363
49.300000      0.253390      0.248669      24.262810      32.135796      59.772553      34.842591      52.376879
49.400000      0.252764      0.248037      24.284882      32.118470      59.616933      34.884332      52.412216
49.500000      0.252140      0.247405      24.306987      32.101348      59.462115      34.926018      52.447374
49.600000      0.251518      0.246774      24.329123      32.084429      59.308096      34.967647      52.482353
49.700000      0.250896      0.246145      24.351292      32.067710      59.154874      35.009220      52.517155
49.800000      0.250275      0.245517      24.373492      32.051192      59.002446      35.050738      52.551779
49.900000      0.249656      0.244890      24.395723      32.034874      58.850809      35.092199      52.586226
